wavelength,intensity
350,-7.37
351,-10.44
352,-5.82
353,-0.01
354,23.63
355,3.41
356,0.29
357,15.79
358,63.88
359,13.62
360,-12.01
361,0.02
362,1.52
363,-2.16
364,-4.86
365,-12.16
366,-7.4
367,-3.62
368,0.41
369,-0.39
370,4.19
371,7.17
372,1.61
373,-5.56
374,-3.84
375,12.94
376,40.86
377,3.49
378,-5.01
379,0.95
380,19.37
381,53.5
382,14.1
383,-6.96
384,1.26
385,-6.55
386,-7.1
387,-2.9
388,-3.89
389,2.82
390,11.28
391,14.84
392,27.59
393,-4.56
394,9.39
395,7.42
396,0.66
397,-3.51
398,-0.46
399,12.94
400,35.05
401,16.79
402,-0.73
403,-5.94
404,23.37
405,8.42
406,33.36
407,22.35
408,-2.7
409,-4.03
410,-4.35
411,-1.7
412,-4.84
413,0.36
414,1.14
415,3.13
416,-1.04
417,-3.25
418,-1.8
419,-0.17
420,10.66
421,11.01
422,-0.95
423,-2.43
424,3.4
425,0.84
426,10.86
427,31.5
428,28.8
429,11
430,2.21
431,-0.76
432,-3.24
433,4.42
434,6.82
435,17.37
436,3.59
437,-5.82
438,0.05
439,-6.73
440,2.72
441,3.78
442,1.36
443,-4.25
444,-5.33
445,-5.52
446,-3.23
447,1.14
448,3.06
449,7.32
450,3
451,0.01
452,-2.33
453,-1.09
454,-5.65
455,2.95
456,-4.8
457,4.49
458,14.89
459,-0.74
460,-1.63
461,-2.05
462,1.64
463,-6.89
464,0.51
465,2.47
466,1.03
467,-2.33
468,2.44
469,-3.44
470,-4.44
471,4.82
472,-1.25
473,-6.2
474,0.18
475,-0.63
476,-1.28
477,-3.67
478,-6.71
479,-5.43
480,-1.47
481,-6.75
482,5.84
483,3.12
484,-1.09
485,-6.33
486,-8.11
487,-4.06
488,-3.29
489,-5.85
490,1.44
491,-4.51
492,4.58
493,12.31
494,2.72
495,-4.4
496,3.28
497,-0.42
498,-1.73
499,-2.45
500,-0.08
501,-1.56
502,2.94
503,-3.12
504,-10.12
505,-0.42
506,-6.63
507,-6.88
508,-0.28
509,-7.13
510,-6.39
511,-2.51
512,-6.92
513,0.61
514,1.99
515,-3.24
516,-4.71
517,-8.22
518,-0.45
519,0.81
520,-2.85
521,-3.9
522,-1.36
523,-6.16
524,1.28
525,-2.28
526,-3.07
527,-2.3
528,-1.18
529,-0.53
530,-2.21
531,-7.34
532,-1.93
533,-5.36
534,-0.55
535,-3.22
536,-6.89
537,-4.35
538,-2.83
539,5.05
540,-8.26
541,-13.83
542,-4.86
543,-7.3
544,-1.4
545,-3.33
546,-10.37
547,-9.97
548,-2.66
549,-5.69
550,-6.24
551,-2.15
552,-5.14
553,-4.26
554,-5.48
555,-5.28
556,-6.93
557,-6.21
558,-0.9
559,-5.98
560,-3.38
561,4.14
562,-2.69
563,-9.83
564,-6.62
565,-4.46
566,-3.43
567,2.62
568,-4.63
569,-6.16
570,-7.72
571,-1.99
572,-5.94
573,-6.56
574,1.97
575,12.99
576,5.45
577,-2.5
578,7.42
579,-1.03
580,3.27
581,0.14
582,-2.45
583,-3.23
584,5.35
585,2.9
586,0.75
587,1.74
588,2.59
589,4.83
590,-1.85
591,4.49
592,4.7
593,-1.55
594,2.61
595,2.52
596,3.82
597,-0.15
598,-0.83
599,-3.53
600,-6.15
601,-3.15
602,6.51
603,-0.98
604,-7.44
605,-2.21
606,2.99
607,-0.37
608,-0.43
609,-5.81
610,-1.53
611,-4.3
612,-0.63
613,-0.96
614,-3.36
615,-4.73
616,-2.32
617,0.5
618,-4.53
619,0.02
620,-6.15
621,-0.14
622,-9.33
623,1.22
624,2.41
625,-1.37
626,-6.26
627,5.41
628,-6.18
629,-0.86
630,7.55
631,-1.27
632,1.91
633,0.57
634,1.84
635,2.39
636,-2.21
637,6.14
638,3.34
639,1.88
640,3.95
641,-2.57
642,5
643,1.05
644,5.42
645,-0.9
646,5.67
647,9.2
648,3.63
649,-8.58
650,-1.88
651,-0.52
652,2.73
653,10.32
654,10.56
655,4.57
656,0.44
657,3.53
658,1.89
659,8.74
660,1.97
661,12.99
662,17.55
663,11.41
664,3.75
665,-1.06
666,5.69
667,12.26
668,18.21
669,18.27
670,19.8
671,26.59
672,11.05
673,1.08
674,-2.87
675,3.12
676,7.84
677,10.83
678,6.65
679,10.47
680,3.94
681,-0.32
682,-3.66
683,-6.74
684,4.35
685,-2.64
686,1.82
687,-2.41
688,-2.24
689,1.4
690,-1.54
691,-5.66
692,-12.1
693,-8.22
694,-6.57
695,-4.76
696,-4.99
697,-1.19
698,-5.8
699,-4.46
700,-8.25
701,-6.68
702,-2.17
703,-4.79
704,-5.61
705,-11.29
706,-0.88
707,2.33
708,-3.97
709,-0.81
710,-9.61
711,-2.54
712,-9.24
713,-1.46
714,-9.41
715,-3.36
716,-4.37
717,-2.54
718,-8.08
719,-1.92
720,-10.9
721,1.88
722,1.74
723,-8.45
724,-0.09
725,-4.52
726,-2.93
727,9.05
728,-1.44
729,-2.39
730,-0.45
731,-8.3
732,-4.85
733,-5.73
734,5.14
735,-1.09
736,2.74
737,-2.83
738,-3.09
739,1.82
740,-4.06
741,-5.48
742,-4.36
743,5.6
744,0.69
745,0.62
746,7.9
747,5.65
748,5.69
749,9.04
750,5.8
751,7.87
752,5.74
753,-6.37
754,-9.06
755,-3.23
756,0.55
757,-3.45
758,3.98
759,4.09
760,6.33
761,8.17
762,1.98
763,8.86
764,-3.21
765,0.96
766,-1.19
767,-2.73
768,-0.32
769,-0.39
770,-3.42
771,4.49
772,2.65
773,2.55
774,6.01
775,11.36
776,1.18
777,-2.07
778,1.4
779,-8.13
780,-5.61
781,-7.78
782,-2.78
783,-6.96
784,-2.69
785,-4.33
786,-4.33
787,-5.86
788,-4.58
789,-6.21
790,-7.8
791,-2.32
792,-7.67
793,-0.25
794,-7.61
795,-5.82
796,-7.38
797,-3.28
798,-0.36
799,-9.27
800,-6.18
801,-6.92
802,-0.69
803,0.93
804,-7.77
805,-9.31
806,-2.45
807,-1.39
808,-4.99
809,-10.37
810,-3.06
811,-6.41
812,-3.49
813,-4.84
814,-2.43
815,-10.09
816,-5.62
817,-11.17
818,-12.14
819,-5.1
820,-8.75
821,-7.43
822,-0.37
823,-4.32
824,-1.92
825,-3.95
826,-10.62
827,-4.88
828,-1.39
829,-1.41
830,-0.54
831,-5.59
832,-8.82
833,-6.19
834,-5.27
835,-5.48
836,-4.58
837,-7.2
838,-4.86
839,-9.29
840,-7.42
841,-3.62
842,-8.21
843,-7.02
844,-6.28
845,-6.57
846,0.39
847,-3.97
848,-5.91
849,4.95
850,-1.25
851,-7.7
852,-4.21
853,-10.41
854,3.69
855,-0.29
856,-6.95
857,-5.03
858,-9.47
859,-6.06
860,-3.66
861,-7.51
862,0.42
863,-8.4
864,-1.87
865,-5.87
866,-9.52
867,-8.89
868,-6.71
869,-4.33
870,0.98
871,-3.66
872,0.12
873,-4.3
874,-3.18
875,-12.57
876,-7.19
877,-4.14
878,-6.03
879,-9.16
880,-3.1
881,-18.1
882,-3.1
883,-5.62
884,-10.67
885,-3.65
886,-1.85
887,-5.36
888,-5.52
889,-6.34
890,-0.68
891,-10.25
892,-3.12
893,-6.12
894,-4.82
895,-1.87
896,-3.9
897,-7.39
898,-5.9
899,-1.35
900,-0.72
901,-10.93
902,-0.62
903,-7.91
904,-8.37
905,-2.92
906,-11.49
907,-11.78
908,-4
909,-5.29
910,-9.01
911,-0.32
912,-10.34
913,-6.11
914,-8.69
915,-3.2
916,-8.59
917,-4.5
918,-1.04
919,-8.9
920,-7.41
921,-8.37
922,-6.17
923,-8.8
924,-9.83
925,-3.89
926,-9.69
927,-5.87
928,-6.73
929,-1.77
930,-2.99
931,5.49
932,-4.03
933,-1.39
934,0.45
935,-6.2
936,-0.05
937,-11.01
938,-10.17
939,-0.39
940,-3.76
941,-9.41
942,-4.28
943,-7.25
944,-6.93
945,-10.38
946,-1.19
947,-1.89
948,-0.48
949,-10.38
950,-9.45
951,-8.27
952,-0.64
953,-7.99
954,-4.83
955,-3.19
956,-1.92
957,-4.61
958,-1.38
959,-6.6
960,-2.83
961,-12.24
962,-2.21
963,-4.18
964,-8.99
965,-10.72
966,-2.19
967,-8.44
968,-5.89
969,-11.49
970,-4.6
971,-10.02
972,-5.04
973,-5.15
974,-3.73
975,-2.45
976,-6.28
977,-9.38
978,-3.32
979,-9.91
980,-6.27
981,-4.92
982,-8.19
983,-9.23
984,3.33
985,-10.6
986,-8.37
987,-2.78
988,-12.57
989,-4.63
990,-3.76
991,-8.67
992,-6
993,-6.12
994,-7.33
995,-2.1
996,3.66
997,-3.6
998,-10.15
999,-7.06
1000,-5.37