wavelength,intensity
350,-3.32
351,-9.36
352,-12.29
353,-1.55
354,26.52
355,-10.77
356,2.83
357,33.29
358,98.99
359,19.73
360,-10.32
361,-12.36
362,-17.62
363,-11.93
364,-4.93
365,-11.16
366,-9.48
367,-11.9
368,-4.49
369,-0.38
370,-3.16
371,7.88
372,-3.43
373,-5.46
374,-5.24
375,14.17
376,64
377,0.75
378,-14.93
379,2.13
380,36.63
381,93.43
382,10.48
383,-8
384,-11.27
385,-11.6
386,-3.85
387,-0.66
388,-6.81
389,1.13
390,-5.82
391,-0.32
392,-1.59
393,4.83
394,8.19
395,10.62
396,-9.97
397,-5.13
398,1.87
399,8.47
400,49.17
401,23.33
402,-3.42
403,-2.27
404,15.82
405,11.52
406,52.09
407,24.79
408,-1.71
409,-1.14
410,-1.12
411,-12.08
412,-0.86
413,-0.09
414,-1.37
415,-4.53
416,-3.34
417,-7.32
418,-5.24
419,0.5
420,6.76
421,5.71
422,-2.23
423,-7.49
424,-2.91
425,-2.22
426,6.75
427,30.49
428,24.51
429,-2.11
430,-2.26
431,-4.38
432,-5.74
433,-0.4
434,10.05
435,15.5
436,2.87
437,-3.2
438,-10.37
439,-2.52
440,-2.59
441,1.6
442,-0.82
443,-0.33
444,-9.75
445,-5.07
446,-2.31
447,-6.56
448,-2.32
449,-0.4
450,-1.18
451,-1.49
452,-1.49
453,-2.52
454,2.09
455,-5.13
456,3.57
457,1.16
458,5.43
459,1.94
460,-3.44
461,-6.34
462,-2
463,-8.8
464,-2.5
465,-2.03
466,0.68
467,0.78
468,-0.05
469,-4.26
470,-0.33
471,1.92
472,-4.29
473,-10.17
474,-7.55
475,-8.18
476,-1.73
477,1.98
478,-2.12
479,-2.99
480,-3.94
481,-6.65
482,-0.94
483,-5.21
484,-9.92
485,-5.34
486,-6.02
487,-7.89
488,-0.46
489,-0.47
490,-1.93
491,-1.91
492,-0.57
493,15.67
494,-3.64
495,-3.73
496,-2.07
497,-5.35
498,-3
499,-7.15
500,-10.8
501,-8.39
502,-5.22
503,-3.43
504,-3.81
505,-0.49
506,-4.6
507,-5.06
508,-9.46
509,-8.85
510,-4.27
511,-3.58
512,-6.75
513,-5.69
514,-6.01
515,-4.87
516,-13.1
517,-11.21
518,-3.58
519,-1.22
520,-5.75
521,-8.07
522,-9.36
523,-5.93
524,-3.12
525,-5.44
526,-6.93
527,-9.7
528,-4.97
529,-8.07
530,-8.99
531,-4.39
532,-0.79
533,-6.72
534,-1.07
535,-4.67
536,-8.31
537,-6.88
538,-0.36
539,-1.88
540,-5.49
541,-2.61
542,-4.36
543,-12.62
544,-4.84
545,-5.3
546,-4.15
547,-10.76
548,-4.58
549,-9.54
550,-10.4
551,-6.87
552,-7.43
553,-5.94
554,-4.19
555,-5.47
556,-2.39
557,-4.54
558,-5.4
559,-4.58
560,-11.38
561,-7.41
562,-8.76
563,-13
564,-5.77
565,-12.53
566,-4.47
567,-3.47
568,-12.85
569,-2.24
570,-7.48
571,-8.44
572,-4.3
573,-3.97
574,1.16
575,4.21
576,6.7
577,-3.12
578,4.49
579,8.82
580,2.12
581,4.76
582,0.71
583,-0.28
584,0.74
585,0.62
586,-0.85
587,1.61
588,4.57
589,1.31
590,1.11
591,1.86
592,1.93
593,2.93
594,1.62
595,-2.53
596,3.19
597,-4.32
598,-6.3
599,3.53
600,2.66
601,2.03
602,-4.04
603,-3.75
604,-2.93
605,0.31
606,7.34
607,7.51
608,7.17
609,-10.09
610,-3.24
611,-8.34
612,-5.38
613,-6.12
614,-2.48
615,-10.45
616,-2.52
617,-6.41
618,-7.63
619,-5.91
620,-8.63
621,-8.51
622,-2.22
623,-8.43
624,-6.83
625,-1.64
626,-3.12
627,-6.68
628,-12.77
629,1.79
630,-2.52
631,2.99
632,-3.05
633,-0.44
634,-5.34
635,-6.56
636,-0.48
637,2.34
638,2.27
639,1.61
640,6.17
641,-3.73
642,0.12
643,-1.18
644,2.41
645,6.62
646,10.84
647,-0.65
648,-5.35
649,-4.66
650,-1.74
651,1.31
652,9.2
653,17.81
654,7.41
655,9.9
656,7.56
657,4
658,2.64
659,12.41
660,24.6
661,18.79
662,28.44
663,21.08
664,5.99
665,2.25
666,0.52
667,12.7
668,16.07
669,20.53
670,19.44
671,29.58
672,10.86
673,0.16
674,-1.14
675,2.6
676,12.62
677,10.24
678,12.56
679,16.27
680,5.78
681,1.61
682,-1.5
683,-3.51
684,1.22
685,1.41
686,-1.59
687,-4.39
688,5.55
689,-3.29
690,-10.29
691,-10.28
692,-12.18
693,-8.06
694,-10.51
695,-5.99
696,-4.98
697,-10.55
698,-6.06
699,-6.84
700,-8.78
701,-8.96
702,-13.31
703,-12.03
704,-13.28
705,-10.53
706,-15.51
707,-5.12
708,-3.91
709,-7.73
710,-14.71
711,-8.71
712,-6.44
713,-9.48
714,-8.4
715,-5.44
716,-11.49
717,-9.47
718,-9.93
719,-11.66
720,-10.56
721,-5.67
722,-8.09
723,1.7
724,2.09
725,2.55
726,-4.68
727,-1.89
728,0.33
729,1.14
730,-1.72
731,1.68
732,-6.93
733,-5.25
734,2.82
735,9.74
736,3.39
737,7.3
738,4.42
739,5.84
740,1.89
741,3.67
742,-12.29
743,-3.39
744,2.65
745,4.7
746,11.3
747,7.98
748,14.32
749,22.4
750,8.61
751,8.96
752,-0.11
753,-0.06
754,-0.63
755,1.74
756,-6.57
757,0.89
758,1.48
759,14.59
760,15.68
761,9.08
762,15.24
763,19.48
764,-0.56
765,-1.19
766,-2.16
767,-6.39
768,-3.49
769,-2.31
770,4.67
771,10.08
772,11.88
773,9.26
774,8.96
775,13.73
776,11.04
777,1.23
778,8.27
779,-10.61
780,-3.55
781,-9.39
782,-7.72
783,-16.14
784,-19.42
785,-4.27
786,-3.31
787,-8.14
788,-1.42
789,-14.77
790,-8.96
791,-7.78
792,-5.82
793,-10.64
794,-6.4
795,-11.86
796,-13.4
797,-2.58
798,-3.55
799,-6.99
800,-8.97
801,-10.94
802,-3.67
803,-6.17
804,-17.4
805,-5.98
806,-10.25
807,-15.28
808,-4.99
809,-10.38
810,-6.27
811,-7.86
812,-4.86
813,-14.25
814,-11.38
815,-6.1
816,-19.38
817,-7.17
818,-15.16
819,-10.37
820,-13.14
821,-9.79
822,-8.34
823,-14.28
824,-8.3
825,-8.88
826,-10.24
827,-5.73
828,-4.54
829,-15.38
830,-8.76
831,-8.27
832,-10.91
833,-7.83
834,-11.67
835,-9.21
836,-11.85
837,-8.03
838,-10.67
839,-4.05
840,-9.38
841,-9.84
842,-9.06
843,-7.85
844,-8.68
845,-6.44
846,-5.44
847,-12.84
848,-2.94
849,-9.11
850,-9.3
851,-5.23
852,-7.52
853,-8.39
854,-11.04
855,-4.38
856,-10.38
857,-10.79
858,-8.31
859,-13.7
860,-10.88
861,-11.79
862,-4.52
863,-15.28
864,1.17
865,-3.64
866,-4.13
867,-1.35
868,-13.49
869,-7.07
870,-5.64
871,-8.18
872,-4.15
873,1.07
874,-8.41
875,-16.76
876,-7.2
877,-9.24
878,-6.21
879,-12.31
880,-7.79
881,-13.3
882,-7.04
883,-13.13
884,-9.76
885,-6.36
886,0.58
887,-7.61
888,-4.37
889,-5.51
890,-4.63
891,-1.93
892,-6.69
893,-8.56
894,-4.45
895,-15.31
896,-11.27
897,-7.42
898,-16.8
899,-6.44
900,-4.77
901,-11.7
902,-5.57
903,-8.08
904,-10.53
905,-9.38
906,-11.62
907,-14.35
908,-12.19
909,-10.73
910,-10.78
911,-5.23
912,-10.54
913,-18.43
914,-13.31
915,-10.72
916,-7.38
917,-9.89
918,-14.51
919,-9.36
920,-11.7
921,-10.37
922,-0.17
923,-16.22
924,-12.15
925,-13.37
926,-10.44
927,-11.87
928,-14.26
929,-15
930,-9.83
931,-8.64
932,-8.36
933,-13.93
934,-12.53
935,-7.56
936,-9.45
937,-9.85
938,-10.93
939,-10.4
940,-10.29
941,-11.25
942,-11.64
943,-17.07
944,-9.02
945,-16.1
946,-11.74
947,-11.35
948,-11.27
949,-11.04
950,-6.49
951,-6.18
952,-11.3
953,-16.83
954,-12.95
955,-9.87
956,-9.14
957,-14.46
958,-7.69
959,-13.44
960,-11.87
961,-19.9
962,-11.33
963,-0.19
964,-9.81
965,-6.04
966,-8.21
967,-10.33
968,-14.16
969,-2.97
970,-8.53
971,-7.24
972,-11.44
973,-10.88
974,-10.38
975,-12.08
976,-9.75
977,-7.75
978,-6.23
979,-9.25
980,-9.09
981,-10.65
982,-11.87
983,-9.27
984,-8.38
985,-8.08
986,-11.45
987,-10.17
988,-3.57
989,-6.79
990,-12.76
991,-10.11
992,-13.62
993,-8.42
994,-10.52
995,-2.89
996,-8.02
997,-10.87
998,-11.67
999,-11.89
1000,-8.3